subjCode,workerId,assignmentId,hitId,pic1,pic2,country1,country2,expTimer,response,trial_number,rt
subjCode,workerId,assignmentId,hitId,anvil,hotdog,unspecified,unspecified,4.293,5,1,2477
subjCode,workerId,assignmentId,hitId,anvil,strawberry,unspecified,unspecified,5.588,6,2,1284
subjCode,workerId,assignmentId,hitId,anvil,weddingcake,unspecified,unspecified,6.547,7,3,952
subjCode,workerId,assignmentId,hitId,apricot,tennisball,unspecified,unspecified,8.054,6,4,1501
subjCode,workerId,assignmentId,hitId,artichoke,baseball,unspecified,unspecified,8.723,5,5,662
subjCode,workerId,assignmentId,hitId,artichoke,cherries,unspecified,unspecified,9.37,4,6,640
subjCode,workerId,assignmentId,hitId,banana,blueberries,unspecified,unspecified,10.035,3,7,660
subjCode,workerId,assignmentId,hitId,banana,frog,unspecified,unspecified,10.592,2,8,553
subjCode,workerId,assignmentId,hitId,banana,noentrysign,unspecified,unspecified,33.389,1,9,22790
subjCode,workerId,assignmentId,hitId,baseball,bear,unspecified,unspecified,33.407,2,10,8
subjCode,workerId,assignmentId,hitId,baseball,garlic,unspecified,unspecified,33.957,4,11,539
subjCode,workerId,assignmentId,hitId,baseball,potato,unspecified,unspecified,34.262,5,12,295
subjCode,workerId,assignmentId,hitId,baseball,sideroadsign,unspecified,unspecified,34.537,6,13,267
subjCode,workerId,assignmentId,hitId,baseballmitt,driedcorn,unspecified,unspecified,34.827,7,14,283
subjCode,workerId,assignmentId,hitId,baseballmitt,snowflake,unspecified,unspecified,35.225,3,15,392
subjCode,workerId,assignmentId,hitId,basketball,wreath,unspecified,unspecified,35.419,4,16,188
subjCode,workerId,assignmentId,hitId,bear,cherries,unspecified,unspecified,35.549,5,17,123
subjCode,workerId,assignmentId,hitId,bear,corncob,unspecified,unspecified,36.214,7,18,654
subjCode,workerId,assignmentId,hitId,bear,smokedetector,unspecified,unspecified,36.744,3,19,521
subjCode,workerId,assignmentId,hitId,anvil,eggplant,unspecified,unspecified,7.349,3,1,6287
subjCode,workerId,assignmentId,hitId,anvil,iguana,unspecified,unspecified,8.087,4,2,728
subjCode,workerId,assignmentId,hitId,apricot,carrot,unspecified,unspecified,23.917,6,3,15821
subjCode,workerId,assignmentId,hitId,apricot,schoolbus,unspecified,unspecified,27.46,4,4,3533
subjCode,workerId,assignmentId,hitId,anvil,cardinal,unspecified,unspecified,17.703,2,1,16356
subjCode,workerId,assignmentId,hitId,anvil,television,unspecified,unspecified,18.215,2,2,494
subjCode,workerId,assignmentId,hitId,apricot,blueberries,unspecified,unspecified,18.72,2,3,486
subjCode,workerId,assignmentId,hitId,artichoke,avocado,unspecified,unspecified,19.18,2,4,450
subjCode,workerId,assignmentId,hitId,artichoke,banana,unspecified,unspecified,19.648,2,5,451
subjCode,workerId,assignmentId,hitId,artichoke,television,unspecified,unspecified,23.212,2,6,3534
subjCode,workerId,assignmentId,hitId,avocado,banana,unspecified,unspecified,23.571,2,7,346
subjCode,workerId,assignmentId,hitId,avocado,fox,unspecified,unspecified,24.417,2,8,834
subjCode,workerId,assignmentId,hitId,avocado,peapod,unspecified,unspecified,25.047,2,9,617
subjCode,workerId,assignmentId,hitId,avocado,turtle,unspecified,unspecified,25.432,2,10,374
subjCode,workerId,assignmentId,hitId,banana,cigar,unspecified,unspecified,25.952,2,11,508
subjCode,workerId,assignmentId,hitId,baseball,strawberry,unspecified,unspecified,27.227,3,12,1259
subjCode,workerId,assignmentId,hitId,anvil,avocado,unspecified,unspecified,58.356,3,1,56441
subjCode,workerId,assignmentId,hitId,anvil,strawberry,unspecified,unspecified,97.214,1,2,38835
subjCode,workerId,assignmentId,hitId,anvil,tire,unspecified,unspecified,110.185,1,3,12958
subjCode,workerId,assignmentId,hitId,anvil,banana,unspecified,unspecified,86.761,1,1,86119
subjCode,workerId,assignmentId,hitId,anvil,baseball,unspecified,unspecified,99.584,1,2,12808
subjCode,workerId,assignmentId,hitId,anvil,rubberducky,unspecified,unspecified,117.625,1,3,18026
subjCode,workerId,assignmentId,hitId,artichoke,bison,unspecified,unspecified,175.7,1,4,58065
subjCode,workerId,assignmentId,hitId,anvil,stocking,unspecified,unspecified,1.924,2,1,1185
subjCode,workerId,assignmentId,hitId,anvil,bear,unspecified,unspecified,1.456,1,1,669
subjCode,workerId,assignmentId,hitId,anvil,rhinoceros,unspecified,unspecified,12.377,1,1,667
subjCode,workerId,assignmentId,hitId,anvil,lime,unspecified,unspecified,11.6,1,1,1165
subjCode,workerId,assignmentId,hitId,anvil,lion,unspecified,unspecified,6.184,1,1,4290
subjCode,workerId,assignmentId,hitId,anvil,firetruck,unspecified,unspecified,1.362,1,1,490
subjCode,workerId,assignmentId,hitId,artichoke,basketball,unspecified,unspecified,2.804,1,2,925
subjCode,workerId,assignmentId,hitId,artichoke,chick,unspecified,unspecified,4.127,1,3,809
subjCode,workerId,assignmentId,hitId,avocado,grapefruithalves,unspecified,unspecified,5.574,2,4,934
subjCode,workerId,assignmentId,hitId,avocado,tooth,unspecified,unspecified,6.482,3,5,394
subjCode,workerId,assignmentId,hitId,banana,blueberries,unspecified,unspecified,7.023,3,6,18
subjCode,workerId,assignmentId,hitId,banana,greekcolumn,unspecified,unspecified,7.781,3,7,240
subjCode,workerId,assignmentId,hitId,baseball,celery,unspecified,unspecified,8.358,3,8,58
subjCode,workerId,assignmentId,hitId,anvil,eggplant,unspecified,unspecified,1.945,1,1,998
subjCode,workerId,assignmentId,hitId,anvil,kiwihalf,unspecified,unspecified,3.929,1,2,1474
subjCode,workerId,assignmentId,hitId,anvil,rhinoceros,unspecified,unspecified,4.964,2,3,521
subjCode,workerId,assignmentId,hitId,anvil,binoculars,unspecified,unspecified,2.33,1,1,665
subjCode,workerId,assignmentId,hitId,apricot,blueberries,unspecified,unspecified,3.226,2,2,371
subjCode,workerId,assignmentId,hitId,apricot,greenbeans,unspecified,unspecified,4.201,4,3,458
subjCode,workerId,assignmentId,hitId,artichoke,smokedetector,unspecified,unspecified,5.199,3,4,479
subjCode,workerId,assignmentId,hitId,avocado,handicappedparking,unspecified,unspecified,6.864,2,5,1148
subjCode,workerId,assignmentId,hitId,avocado,polarbear,unspecified,unspecified,58.946,1,6,51564
subjCode,workerId,assignmentId,hitId,avocado,tooth,unspecified,unspecified,60.327,2,7,859
subjCode,workerId,assignmentId,hitId,banana,firemanhat,unspecified,unspecified,61.683,3,8,843
subjCode,workerId,assignmentId,hitId,banana,greekcolumn,unspecified,unspecified,62.585,3,9,386
subjCode,workerId,assignmentId,hitId,banana,tiger,unspecified,unspecified,63.497,4,10,396
subjCode,workerId,assignmentId,hitId,baseball,greekcolumn,unspecified,unspecified,64.67,5,11,651
subjCode,workerId,assignmentId,hitId,baseball,moviecamera,unspecified,unspecified,65.648,3,12,462
subjCode,workerId,assignmentId,hitId,anvil,blueberries,unspecified,unspecified,1.57,1,1,634
subjCode,workerId,assignmentId,hitId,anvil,pinkflamingo,unspecified,unspecified,2.439,2,2,354
subjCode,workerId,assignmentId,hitId,artichoke,ketchup,unspecified,unspecified,3.346,3,3,395
subjCode,workerId,assignmentId,hitId,avocado,firemanhat,unspecified,unspecified,4.244,4,4,376
subjCode,workerId,assignmentId,hitId,avocado,fox,unspecified,unspecified,4.943,4,5,185
subjCode,workerId,assignmentId,hitId,avocado,lime,unspecified,unspecified,5.773,3,6,318
subjCode,workerId,assignmentId,hitId,avocado,penguin,unspecified,unspecified,6.776,2,7,481
subjCode,workerId,assignmentId,hitId,avocado,schoolbus,unspecified,unspecified,7.738,1,8,451
subjCode,workerId,assignmentId,hitId,banana,hotdog,unspecified,unspecified,8.68,4,9,426
subjCode,workerId,assignmentId,hitId,baseball,cauliflower,unspecified,unspecified,9.22,4,10,22
subjCode,workerId,assignmentId,hitId,baseball,piano,unspecified,unspecified,10.286,6,11,541
subjCode,workerId,assignmentId,hitId,baseball,tooth,unspecified,unspecified,11.118,7,12,317
subjCode,workerId,assignmentId,hitId,baseballmitt,peapod,unspecified,unspecified,12.586,5,13,947
subjCode,workerId,assignmentId,hitId,baseballmitt,swan,unspecified,unspecified,18.72,2,14,5617
subjCode,workerId,assignmentId,hitId,basketball,bison,unspecified,unspecified,19.565,3,15,331
subjCode,workerId,assignmentId,hitId,basketball,celery,unspecified,unspecified,20.239,4,16,151
subjCode,workerId,assignmentId,hitId,basketball,tiger,unspecified,unspecified,21.171,5,17,421
subjCode,workerId,assignmentId,hitId,bear,rhinoceros,unspecified,unspecified,21.802,6,18,117
subjCode,workerId,assignmentId,hitId,bear,rubberducky,unspecified,unspecified,22.398,7,19,77
subjCode,workerId,assignmentId,hitId,bear,television,unspecified,unspecified,24.433,7,20,1515
subjCode,workerId,assignmentId,hitId,bear,tomato,unspecified,unspecified,25.061,6,21,116
subjCode,workerId,assignmentId,hitId,bison,firehydrant,unspecified,unspecified,25.594,5,22,17
subjCode,workerId,assignmentId,hitId,bison,tire,unspecified,unspecified,26.486,3,23,377
subjCode,workerId,assignmentId,hitId,blueberries,chinesefoodcarton,unspecified,unspecified,27.227,1,24,226
subjCode,workerId,assignmentId,hitId,blueberries,penguin,unspecified,unspecified,28.126,3,25,387
subjCode,workerId,assignmentId,hitId,bulldozer,santahat,unspecified,unspecified,28.711,4,26,68
subjCode,workerId,assignmentId,hitId,bulldozer,violin,unspecified,unspecified,36.612,1,27,7378
subjCode,workerId,assignmentId,hitId,cactus,chinesefoodcarton,unspecified,unspecified,37.533,2,28,406
subjCode,workerId,assignmentId,hitId,cactus,tank,unspecified,unspecified,38.333,3,29,288
subjCode,workerId,assignmentId,hitId,camera,firehydrant,unspecified,unspecified,39.18,4,30,331
subjCode,workerId,assignmentId,hitId,camera,lime,unspecified,unspecified,40.904,5,31,1204
subjCode,workerId,assignmentId,hitId,anvil,crocodile,unspecified,unspecified,3.184,3,1,1483
subjCode,workerId,assignmentId,hitId,anvil,record,unspecified,unspecified,3.702,3,2,4
subjCode,workerId,assignmentId,hitId,apricot,driedcorn,unspecified,unspecified,4.442,4,3,227
subjCode,workerId,assignmentId,hitId,artichoke,broccoli,unspecified,unspecified,5.076,5,4,121
subjCode,workerId,assignmentId,hitId,artichoke,eggplant,unspecified,unspecified,5.822,6,5,233
subjCode,workerId,assignmentId,hitId,artichoke,hotdog,unspecified,unspecified,6.655,5,6,315
subjCode,workerId,assignmentId,hitId,avocado,bear,unspecified,unspecified,7.577,3,7,404
subjCode,workerId,assignmentId,hitId,avocado,trafficcone,unspecified,unspecified,8.208,2,8,117
subjCode,workerId,assignmentId,hitId,banana,schoolbus,unspecified,unspecified,9.398,3,9,673
subjCode,workerId,assignmentId,hitId,banana,tophat,unspecified,unspecified,10.064,4,10,132
subjCode,workerId,assignmentId,hitId,baseball,crocodile,unspecified,unspecified,10.621,5,11,45
subjCode,workerId,assignmentId,hitId,baseball,raspberry,unspecified,unspecified,11.26,6,12,112
subjCode,workerId,assignmentId,hitId,baseball,sideroadsign,unspecified,unspecified,12.89,6,13,1113
subjCode,workerId,assignmentId,hitId,baseballmitt,hotdog,unspecified,unspecified,13.514,5,14,108
subjCode,workerId,assignmentId,hitId,basketball,garlic,unspecified,unspecified,14.161,5,15,135
subjCode,workerId,assignmentId,hitId,bear,football,unspecified,unspecified,14.784,5,16,109
subjCode,workerId,assignmentId,hitId,bear,fox,unspecified,unspecified,15.499,2,17,203
subjCode,workerId,assignmentId,hitId,binoculars,bulldozer,unspecified,unspecified,16.041,3,18,28
subjCode,workerId,assignmentId,hitId,binoculars,penguin,unspecified,unspecified,16.641,4,19,83
subjCode,workerId,assignmentId,hitId,binoculars,snowflake,unspecified,unspecified,17.188,5,20,19
subjCode,workerId,assignmentId,hitId,binoculars,turtle,unspecified,unspecified,17.773,6,21,71
subjCode,workerId,assignmentId,hitId,bison,firetruck,unspecified,unspecified,18.415,7,22,126
subjCode,workerId,assignmentId,hitId,broccoli,camera,unspecified,unspecified,18.999,5,23,72
subjCode,workerId,assignmentId,hitId,broccoli,ketchup,unspecified,unspecified,19.791,7,24,260
subjCode,workerId,assignmentId,hitId,broccoli,lime,unspecified,unspecified,20.508,7,25,207
subjCode,workerId,assignmentId,hitId,broccoli,television,unspecified,unspecified,21.231,5,26,214
subjCode,workerId,assignmentId,hitId,bulldozer,garlic,unspecified,unspecified,21.913,3,27,174
subjCode,workerId,assignmentId,hitId,bulldozer,lime,unspecified,unspecified,22.756,1,28,331
subjCode,workerId,assignmentId,hitId,bulldozer,rhinoceros,unspecified,unspecified,23.649,2,29,370
subjCode,workerId,assignmentId,hitId,cactus,santahat,unspecified,unspecified,24.257,2,30,93
subjCode,workerId,assignmentId,hitId,camera,cucumber,unspecified,unspecified,24.837,1,31,65
subjCode,workerId,assignmentId,hitId,camera,noentrysign,unspecified,unspecified,25.625,2,32,269
subjCode,workerId,assignmentId,hitId,anvil,record,unspecified,unspecified,2.196,1,1,958
subjCode,workerId,assignmentId,hitId,anvil,rubberducky,unspecified,unspecified,3.417,2,2,707
subjCode,workerId,assignmentId,hitId,anvil,trumpet,unspecified,unspecified,4.696,3,3,767
subjCode,workerId,assignmentId,hitId,apricot,football,unspecified,unspecified,5.872,4,4,662
subjCode,workerId,assignmentId,hitId,apricot,raspberry,unspecified,unspecified,6.876,5,5,490
subjCode,workerId,assignmentId,hitId,artichoke,chinesefoodcarton,unspecified,unspecified,7.819,6,6,430
subjCode,workerId,assignmentId,hitId,artichoke,egg,unspecified,unspecified,8.707,7,7,373
subjCode,workerId,assignmentId,hitId,artichoke,rhinoceros,unspecified,unspecified,9.879,7,8,650
subjCode,workerId,assignmentId,hitId,artichoke,walkietalkie,unspecified,unspecified,10.663,6,9,264
subjCode,workerId,assignmentId,hitId,avocado,polarbear,unspecified,unspecified,11.406,5,10,227
subjCode,workerId,assignmentId,hitId,avocado,speaker,unspecified,unspecified,12.163,4,11,242
subjCode,workerId,assignmentId,hitId,avocado,strawberry,unspecified,unspecified,12.837,3,12,150
subjCode,workerId,assignmentId,hitId,banana,greenbeans,unspecified,unspecified,13.749,2,13,401
subjCode,workerId,assignmentId,hitId,banana,hockeypuck,unspecified,unspecified,14.575,1,14,314
subjCode,workerId,assignmentId,hitId,banana,peapod,unspecified,unspecified,15.322,2,15,236
subjCode,workerId,assignmentId,hitId,banana,tank,unspecified,unspecified,16.002,3,16,168
subjCode,workerId,assignmentId,hitId,baseball,celery,unspecified,unspecified,16.727,4,17,212
subjCode,workerId,assignmentId,hitId,baseball,snowflake,unspecified,unspecified,17.479,5,18,240
subjCode,workerId,assignmentId,hitId,baseballmitt,egg,unspecified,unspecified,18.271,6,19,273
subjCode,workerId,assignmentId,hitId,baseballmitt,smokedetector,unspecified,unspecified,19.028,7,20,243
subjCode,workerId,assignmentId,hitId,basketball,celery,unspecified,unspecified,19.746,6,21,203
subjCode,workerId,assignmentId,hitId,basketball,corncob,unspecified,unspecified,20.419,5,22,161
subjCode,workerId,assignmentId,hitId,basketball,mailbox,unspecified,unspecified,21.07,4,23,132
subjCode,workerId,assignmentId,hitId,basketball,weddingcake,unspecified,unspecified,21.735,3,24,155
subjCode,workerId,assignmentId,hitId,bear,noentrysign,unspecified,unspecified,22.47,2,25,222
subjCode,workerId,assignmentId,hitId,bear,speaker,unspecified,unspecified,23.181,1,26,199
subjCode,workerId,assignmentId,hitId,bison,garlic,unspecified,unspecified,23.747,2,27,58
subjCode,workerId,assignmentId,hitId,bison,tiger,unspecified,unspecified,24.324,3,28,66
subjCode,workerId,assignmentId,hitId,blueberries,rhinoceros,unspecified,unspecified,24.909,4,29,70
subjCode,workerId,assignmentId,hitId,blueberries,smokedetector,unspecified,unspecified,25.542,5,30,115
subjCode,workerId,assignmentId,hitId,blueberries,tooth,unspecified,unspecified,26.28,6,31,211
subjCode,workerId,assignmentId,hitId,blueberries,washingmachine,unspecified,unspecified,26.917,7,32,125
subjCode,workerId,assignmentId,hitId,bulldozer,chinesefoodcarton,unspecified,unspecified,27.517,6,33,87
subjCode,workerId,assignmentId,hitId,cactus,firehydrant,unspecified,unspecified,28.42,4,34,390
subjCode,workerId,assignmentId,hitId,cactus,iguana,unspecified,unspecified,29.293,2,35,359
subjCode,workerId,assignmentId,hitId,cactus,lime,unspecified,unspecified,29.906,1,36,104
subjCode,workerId,assignmentId,hitId,anvil,record,unspecified,unspecified,2.19,1,1,425
subjCode,workerId,assignmentId,hitId,anvil,smokedetector,unspecified,unspecified,2.967,2,2,258
subjCode,workerId,assignmentId,hitId,apricot,coconut,unspecified,unspecified,3.751,3,3,267
subjCode,workerId,assignmentId,hitId,apricot,cucumber,unspecified,unspecified,4.433,4,4,169
subjCode,workerId,assignmentId,hitId,apricot,piano,unspecified,unspecified,5.149,5,5,203
subjCode,workerId,assignmentId,hitId,apricot,potato,unspecified,unspecified,5.929,6,6,270
subjCode,workerId,assignmentId,hitId,apricot,rubberducky,unspecified,unspecified,7.111,7,7,666
subjCode,workerId,assignmentId,hitId,artichoke,television,unspecified,unspecified,8.489,6,8,864
subjCode,workerId,assignmentId,hitId,avocado,ketchup,unspecified,unspecified,17.672,3,9,8667
subjCode,workerId,assignmentId,hitId,avocado,raspberry,unspecified,unspecified,19.211,4,10,1023
subjCode,workerId,assignmentId,hitId,avocado,tire,unspecified,unspecified,20.637,5,11,916
subjCode,workerId,assignmentId,hitId,baseball,cactus,unspecified,unspecified,22.029,4,12,878
subjCode,workerId,assignmentId,hitId,baseballmitt,moviecamera,unspecified,unspecified,22.946,2,13,379
subjCode,workerId,assignmentId,hitId,basketball,polarbear,unspecified,unspecified,23.788,1,14,325
subjCode,workerId,assignmentId,hitId,bear,crocodile,unspecified,unspecified,25.54,6,15,1234
subjCode,workerId,assignmentId,hitId,binoculars,grapefruithalves,unspecified,unspecified,26.469,5,16,410
subjCode,workerId,assignmentId,hitId,binoculars,greekcolumn,unspecified,unspecified,27.134,3,17,147
subjCode,workerId,assignmentId,hitId,anvil,chick,unspecified,unspecified,4.009,2,1,1438
subjCode,workerId,assignmentId,hitId,anvil,wholewatermelon,unspecified,unspecified,4.85,3,2,324
subjCode,workerId,assignmentId,hitId,apricot,baseballmitt,unspecified,unspecified,5.485,3,3,118
subjCode,workerId,assignmentId,hitId,apricot,elephant,unspecified,unspecified,6.079,3,4,78
subjCode,workerId,assignmentId,hitId,artichoke,penguin,unspecified,unspecified,7.333,4,5,732
subjCode,workerId,assignmentId,hitId,artichoke,santahat,unspecified,unspecified,8.439,5,6,593
subjCode,workerId,assignmentId,hitId,artichoke,trafficcone,unspecified,unspecified,9.795,6,7,843
subjCode,workerId,assignmentId,hitId,avocado,firemanhat,unspecified,unspecified,11.157,6,8,848
subjCode,workerId,assignmentId,hitId,avocado,santahat,unspecified,unspecified,12.021,5,9,354
subjCode,workerId,assignmentId,hitId,avocado,television,unspecified,unspecified,20.017,1,10,7485
subjCode,workerId,assignmentId,hitId,banana,greenbeans,unspecified,unspecified,21.416,3,11,889
subjCode,workerId,assignmentId,hitId,banana,noentrysign,unspecified,unspecified,22.527,4,12,596
subjCode,workerId,assignmentId,hitId,baseball,football,unspecified,unspecified,23.589,5,13,549
subjCode,workerId,assignmentId,hitId,baseball,ketchup,unspecified,unspecified,24.492,6,14,388
subjCode,workerId,assignmentId,hitId,baseball,moviecamera,unspecified,unspecified,25.547,7,15,536
subjCode,workerId,assignmentId,hitId,baseballmitt,greenbeans,unspecified,unspecified,27.061,2,16,1002
subjCode,workerId,assignmentId,hitId,baseballmitt,piano,unspecified,unspecified,28.312,1,17,740
subjCode,workerId,assignmentId,hitId,basketball,clarinet,unspecified,unspecified,29.091,2,18,258
subjCode,workerId,assignmentId,hitId,basketball,handicappedparking,unspecified,unspecified,29.664,3,19,50
subjCode,workerId,assignmentId,hitId,anvil,binoculars,unspecified,unspecified,1.841,￿,1,-1
subjCode,workerId,assignmentId,hitId,anvil,rhinoceros,unspecified,unspecified,3.266,￿,2,-1
subjCode,workerId,assignmentId,hitId,anvil,santahat,unspecified,unspecified,4.873,￿,3,-1
subjCode,workerId,assignmentId,hitId,anvil,baseball,unspecified,unspecified,2.13,1,1,652
subjCode,workerId,assignmentId,hitId,apricot,frog,unspecified,unspecified,3.839,1,2,1198
subjCode,workerId,assignmentId,hitId,apricot,tire,unspecified,unspecified,5.241,1,3,891
subjCode,workerId,assignmentId,hitId,artichoke,basketball,unspecified,unspecified,5.871,1,4,113
subjCode,workerId,assignmentId,hitId,artichoke,piano,unspecified,unspecified,6.386,1,5,4
subjCode,workerId,assignmentId,hitId,artichoke,raspberry,unspecified,unspecified,7.15,1,6,246
subjCode,workerId,assignmentId,hitId,avocado,potato,unspecified,unspecified,7.699,1,7,29
subjCode,workerId,assignmentId,hitId,banana,chick,unspecified,unspecified,8.224,1,8,9
subjCode,workerId,assignmentId,hitId,banana,greenbeans,unspecified,unspecified,8.993,2,9,254
subjCode,workerId,assignmentId,hitId,banana,lemon,unspecified,unspecified,10.485,2,10,976
subjCode,workerId,assignmentId,hitId,baseball,crosswalksign,unspecified,unspecified,11.764,3,11,765
subjCode,workerId,assignmentId,hitId,baseball,pumpkin,unspecified,unspecified,15.725,3,12,3448
subjCode,workerId,assignmentId,hitId,baseball,trumpet,unspecified,unspecified,16.869,4,13,631
subjCode,workerId,assignmentId,hitId,baseballmitt,mailbox,unspecified,unspecified,19.467,5,14,2086
subjCode,workerId,assignmentId,hitId,baseballmitt,tennisball,unspecified,unspecified,22.333,7,15,2353
subjCode,workerId,assignmentId,hitId,basketball,cactus,unspecified,unspecified,25.13,6,16,2283
subjCode,workerId,assignmentId,hitId,anvil,binoculars,unspecified,unspecified,1.733,4,1,1007
subjCode,workerId,assignmentId,hitId,anvil,crosswalksign,unspecified,unspecified,3.093,3,2,345
subjCode,workerId,assignmentId,hitId,anvil,orange,unspecified,unspecified,4.472,2,3,367
subjCode,workerId,assignmentId,hitId,apricot,cigar,unspecified,unspecified,5.678,1,4,192
subjCode,workerId,assignmentId,hitId,artichoke,baseballmitt,unspecified,unspecified,7.046,5,5,355
subjCode,workerId,assignmentId,hitId,artichoke,driedcorn,unspecified,unspecified,8.935,6,6,877
subjCode,workerId,assignmentId,hitId,artichoke,football,unspecified,unspecified,10.493,7,7,542
subjCode,workerId,assignmentId,hitId,artichoke,garlic,unspecified,unspecified,12.227,5,8,718
subjCode,workerId,assignmentId,hitId,artichoke,tennisball,unspecified,unspecified,13.459,4,9,218
subjCode,workerId,assignmentId,hitId,anvil,greekcolumn,unspecified,unspecified,29.736,2,1,2488
subjCode,workerId,assignmentId,hitId,anvil,strawberry,unspecified,unspecified,31.112,3,2,359
subjCode,workerId,assignmentId,hitId,apricot,raspberry,unspecified,unspecified,32.683,4,3,555
subjCode,workerId,assignmentId,hitId,apricot,tiger,unspecified,unspecified,34.6,5,4,906
subjCode,workerId,assignmentId,hitId,anvil,coconut,unspecified,unspecified,1.683,1,1,440
subjCode,workerId,assignmentId,hitId,apricot,bear,unspecified,unspecified,2.836,2,2,139
subjCode,workerId,assignmentId,hitId,apricot,santahat,unspecified,unspecified,3.958,3,3,110
subjCode,workerId,assignmentId,hitId,apricot,violin,unspecified,unspecified,5.002,4,4,31
subjCode,workerId,assignmentId,hitId,artichoke,rubberducky,unspecified,unspecified,6.243,5,5,225
subjCode,workerId,assignmentId,hitId,avocado,cigar,unspecified,unspecified,7.528,6,6,273
subjCode,workerId,assignmentId,hitId,banana,hockeypuck,unspecified,unspecified,8.622,7,7,78
subjCode,workerId,assignmentId,hitId,anvil,carrot,unspecified,unspecified,1.428,1,1,451
subjCode,workerId,assignmentId,hitId,anvil,eggplant,unspecified,unspecified,3.429,1,2,985
subjCode,workerId,assignmentId,hitId,anvil,grapefruithalves,unspecified,unspecified,4.65,3,3,204
subjCode,workerId,assignmentId,hitId,anvil,lemon,unspecified,unspecified,5.9,4,4,237
subjCode,workerId,assignmentId,hitId,anvil,wholewatermelon,unspecified,unspecified,7.06,7,5,147
subjCode,workerId,assignmentId,hitId,apricot,iguana,unspecified,unspecified,8.309,6,6,241
subjCode,workerId,assignmentId,hitId,artichoke,penguin,unspecified,unspecified,9.329,5,7,8
subjCode,workerId,assignmentId,hitId,artichoke,piano,unspecified,unspecified,10.376,4,8,35
subjCode,workerId,assignmentId,hitId,banana,firehydrant,unspecified,unspecified,11.538,2,9,150
subjCode,workerId,assignmentId,hitId,banana,walkietalkie,unspecified,unspecified,12.618,5,10,67
subjCode,workerId,assignmentId,hitId,banana,wholewatermelon,unspecified,unspecified,14.024,7,11,389
subjCode,workerId,assignmentId,hitId,baseball,fox,unspecified,unspecified,17.197,7,12,2161
subjCode,workerId,assignmentId,hitId,baseball,peapod,unspecified,unspecified,18.416,6,13,209
subjCode,workerId,assignmentId,hitId,baseball,walkietalkie,unspecified,unspecified,19.549,4,14,120
subjCode,workerId,assignmentId,hitId,anvil,trafficcone,unspecified,unspecified,9.37,1,1,5903
subjCode,workerId,assignmentId,hitId,apricot,rubberducky,unspecified,unspecified,11.157,2,2,769
subjCode,workerId,assignmentId,hitId,anvil,basketball,unspecified,unspecified,1.842,1,1,867
subjCode,workerId,assignmentId,hitId,anvil,chick,unspecified,unspecified,3.392,2,2,525
subjCode,workerId,assignmentId,hitId,anvil,frog,unspecified,unspecified,2.297,3,1,1508
subjCode,workerId,assignmentId,hitId,anvil,kiwihalf,unspecified,unspecified,1.448,1,1,600
subjCode,workerId,assignmentId,hitId,anvil,handicappedparking,unspecified,unspecified,3.935,1,1,2833
subjCode,workerId,assignmentId,hitId,anvil,bison,unspecified,unspecified,1.581,1,1,770
subjCode,workerId,assignmentId,hitId,anvil,hotdog,unspecified,unspecified,2.216,2,1,1317
subjCode,workerId,assignmentId,hitId,anvil,bulldozer,unspecified,unspecified,1.916,1,1,967
subjCode,workerId,assignmentId,hitId,anvil,lemon,unspecified,unspecified,30.839,1,2,27896
subjCode,workerId,assignmentId,hitId,apricot,fox,unspecified,unspecified,33.062,2,3,1206
subjCode,workerId,assignmentId,hitId,anvil,eggplant,unspecified,unspecified,165.729,1,1,164164
subjCode,workerId,assignmentId,hitId,anvil,weddingcake,unspecified,unspecified,179.414,1,2,12661
subjCode,workerId,assignmentId,hitId,apricot,eggplant,unspecified,unspecified,192.314,1,3,11883
subjCode,workerId,assignmentId,hitId,apricot,wholewatermelon,unspecified,unspecified,249.898,1,4,56560
subjCode,workerId,assignmentId,hitId,artichoke,baseballmitt,unspecified,unspecified,263.407,1,5,12488
subjCode,workerId,assignmentId,hitId,artichoke,crosswalksign,unspecified,unspecified,273.1,1,6,8674
subjCode,workerId,assignmentId,hitId,artichoke,football,unspecified,unspecified,346.046,1,7,71926
subjCode,workerId,assignmentId,hitId,banana,moviecamera,unspecified,unspecified,425.478,1,8,78414
subjCode,workerId,assignmentId,hitId,banana,television,unspecified,unspecified,470.552,1,9,44052
subjCode,workerId,assignmentId,hitId,banana,trumpet,unspecified,unspecified,483.206,1,10,11637
subjCode,workerId,assignmentId,hitId,baseball,iguana,unspecified,unspecified,489.185,1,11,4961
subjCode,workerId,assignmentId,hitId,baseball,tiger,unspecified,unspecified,497.682,1,12,7480
subjCode,workerId,assignmentId,hitId,anvil,mailbox,unspecified,unspecified,1.845,1,1,1050
subjCode,workerId,assignmentId,hitId,apricot,sideroadsign,unspecified,unspecified,4.103,4,2,1236
subjCode,workerId,assignmentId,hitId,anvil,piano,unspecified,unspecified,1.497,1,1,375
subjCode,workerId,assignmentId,hitId,anvil,crosswalksign,unspecified,unspecified,2.055,1,1,1218
subjCode,workerId,assignmentId,hitId,anvil,kiwihalf,unspecified,unspecified,4.032,1,2,960
subjCode,workerId,assignmentId,hitId,anvil,lion,unspecified,unspecified,5.414,2,3,361
subjCode,workerId,assignmentId,hitId,apricot,cactus,unspecified,unspecified,7.85,4,4,1409
subjCode,workerId,assignmentId,hitId,anvil,eggplant,unspecified,unspecified,1.989,1,1,1323
subjCode,workerId,assignmentId,hitId,anvil,ketchup,unspecified,unspecified,2.618,6,1,1034
subjCode,workerId,assignmentId,hitId,apricot,hockeypuck,unspecified,unspecified,4.139,7,2,497
subjCode,workerId,assignmentId,hitId,apricot,wreath,unspecified,unspecified,6.035,5,3,882
subjCode,workerId,assignmentId,hitId,artichoke,greenbeans,unspecified,unspecified,9.04,4,4,1987
